staircase.thisTrialN,staircase.stepSize,staircase.intensity,fixation.started,fixation.stopped,grating.started,key_resp.started,grating.stopped,corrAns,tilt,key_resp.corr,staircase.response,key_resp.rt,participant,session,date,expName,psychopyVersion,frameRate,
0,2,10.0,145.243918400025,145.8508268999867,145.8508268999867,145.8508268999867,146.15045469999313,left,-10.0,0,0,3.223468500073068,298395,001,2023-09-01_11h42.33.822,staircase exp lab report,2023.1.3,59.97814399341266,
1,1,12.0,149.10038209997583,149.58416490000673,149.58416490000673,149.58416490000673,149.88403089996427,right,12.0,1,1,18.86864500003867,298395,001,2023-09-01_11h42.33.822,staircase exp lab report,2023.1.3,59.97814399341266,
2,1,11.0,168.48394459998235,168.98412409995217,168.98412409995217,168.98412409995217,169.28412900003605,right,11.0,1,1,18.317528299987316,298395,001,2023-09-01_11h42.33.822,staircase exp lab report,2023.1.3,59.97814399341266,
3,1,11.0,187.31752339995,187.81775429996196,187.81775429996196,187.81775429996196,188.1173901000293,right,11.0,1,1,41.515554199926555,298395,001,2023-09-01_11h42.33.822,staircase exp lab report,2023.1.3,59.97814399341266,
4,1,11.0,229.3509192999918,229.85044900001958,229.85044900001958,229.85044900001958,230.15034970000852,left,-11.0,1,1,4.992071800050326,298395,001,2023-09-01_11h42.33.822,staircase exp lab report,2023.1.3,59.97814399341266,
5,1,10.0,234.8677404000191,235.36703470000066,235.36703470000066,235.36703470000066,235.66695199999958,left,-10.0,1,1,0.6484615999506786,298395,001,2023-09-01_11h42.33.822,staircase exp lab report,2023.1.3,59.97814399341266,
6,1,10.0,236.03344559995458,236.53361149993725,236.53361149993725,236.53361149993725,236.83376439998392,right,10.0,1,1,1.1272804000182077,298395,001,2023-09-01_11h42.33.822,staircase exp lab report,2023.1.3,59.97814399341266,
7,1,10.0,237.68351390003227,238.18541979999281,238.18541979999281,238.18541979999281,238.50022060004994,right,10.0,1,1,0.6779044999275357,298395,001,2023-09-01_11h42.33.822,staircase exp lab report,2023.1.3,59.97814399341266,
8,1,9.0,238.8847060999833,239.38373190001585,239.38373190001585,239.38373190001585,239.68347799999174,right,9.0,1,1,3.8539816000266,298395,001,2023-09-01_11h42.33.822,staircase exp lab report,2023.1.3,59.97814399341266,
9,1,9.0,243.26720749994274,243.76742579997517,243.76742579997517,243.76742579997517,244.06683459994383,left,-9.0,1,1,37.749554999987595,298395,001,2023-09-01_11h42.33.822,staircase exp lab report,2023.1.3,59.97814399341266,
10,1,9.0,281.5333010000177,282.03372039995156,282.03372039995156,282.03372039995156,282.33433740003966,right,9.0,1,1,11.891062299953774,298395,001,2023-09-01_11h42.33.822,staircase exp lab report,2023.1.3,59.97814399341266,
11,1,8.0,293.9500147999497,294.4502197999973,294.4502197999973,294.4502197999973,294.7497907000361,left,-8.0,1,1,15.704596900031902,298395,001,2023-09-01_11h42.33.822,staircase exp lab report,2023.1.3,59.97814399341266,
12,1,8.0,310.18488570000045,310.68295609997585,310.68295609997585,310.68295609997585,310.9831764999544,left,-8.0,1,1,13.344993600039743,298395,001,2023-09-01_11h42.33.822,staircase exp lab report,2023.1.3,59.97814399341266,
13,1,8.0,324.05084189993795,324.5495317999739,324.5495317999739,324.5495317999739,324.84935090004,right,8.0,1,1,0.8579639999661595,298395,001,2023-09-01_11h42.33.822,staircase exp lab report,2023.1.3,59.97814399341266,
14,1,7.0,325.4330836000154,325.9331073999638,325.9331073999638,325.9331073999638,326.23310790001415,right,7.0,0,0,7.230684699956328,298395,001,2023-09-01_11h42.33.822,staircase exp lab report,2023.1.3,59.97814399341266,
15,1,8.0,333.1832723999396,333.68307979998644,333.68307979998644,333.68307979998644,333.9829027999658,right,8.0,0,0,0.6253948999801651,298395,001,2023-09-01_11h42.33.822,staircase exp lab report,2023.1.3,59.97814399341266,
16,1,9.0,334.3330133999698,334.8331028999528,334.8331028999528,334.8331028999528,335.1330564999953,right,9.0,1,1,16.507051600026898,298395,001,2023-09-01_11h42.33.822,staircase exp lab report,2023.1.3,59.97814399341266,
17,1,9.0,351.3667079999577,351.86649839999154,351.86649839999154,351.86649839999154,352.16629149997607,right,9.0,1,1,4.7551679000025615,298395,001,2023-09-01_11h42.33.822,staircase exp lab report,2023.1.3,59.97814399341266,
18,0.5,9.0,356.64950800000224,357.1498758000089,357.1498758000089,357.1498758000089,357.4495147999842,right,9.0,1,1,0.7251224999781698,298395,001,2023-09-01_11h42.33.822,staircase exp lab report,2023.1.3,59.97814399341266,
19,0.5,8.5,357.8991171999369,358.3827153999591,358.3827153999591,358.3827153999591,358.68238490005024,right,8.5,1,1,2.2472008999902755,298395,001,2023-09-01_11h42.33.822,staircase exp lab report,2023.1.3,59.97814399341266,
20,0.5,8.5,360.64893879997544,361.1331446999684,361.1331446999684,361.1331446999684,361.43279780005105,left,-8.5,1,1,0.6132062999531627,298395,001,2023-09-01_11h42.33.822,staircase exp lab report,2023.1.3,59.97814399341266,
21,0.5,8.5,361.7661069999449,362.26609189994633,362.26609189994633,362.26609189994633,362.5657847999828,right,8.5,1,1,0.7159710000269115,298395,001,2023-09-01_11h42.33.822,staircase exp lab report,2023.1.3,59.97814399341266,
22,0.5,8.0,362.9995241999859,363.49994759995025,363.49994759995025,363.49994759995025,363.79975060001016,right,8.0,1,1,0.582431299961172,298395,001,2023-09-01_11h42.33.822,staircase exp lab report,2023.1.3,59.97814399341266,
23,0.5,8.0,364.0992748000426,364.59918240003753,364.59918240003753,364.59918240003753,364.89933699998073,left,-8.0,1,1,0.9083988999482244,298395,001,2023-09-01_11h42.33.822,staircase exp lab report,2023.1.3,59.97814399341266,
24,0.5,8.0,365.5326501999516,366.03292489994783,366.03292489994783,366.03292489994783,366.3328471999848,left,-8.0,1,1,0.8489587999647483,298395,001,2023-09-01_11h42.33.822,staircase exp lab report,2023.1.3,59.97814399341266,
25,0.5,7.5,366.8993143000407,367.3825948999729,367.3825948999729,367.3825948999729,367.6825526000466,right,7.5,1,1,0.6362358999904245,298395,001,2023-09-01_11h42.33.822,staircase exp lab report,2023.1.3,59.97814399341266,
26,0.5,7.5,368.0497697000392,368.5331923000049,368.5331923000049,368.5331923000049,368.8327790000476,right,7.5,1,1,1.0623731000814587,298395,001,2023-09-01_11h42.33.822,staircase exp lab report,2023.1.3,59.97814399341266,
27,0.5,7.5,369.6162171999458,370.1161793000065,370.1161793000065,370.1161793000065,370.41594430000987,left,-7.5,1,1,0.5492200999287888,298395,001,2023-09-01_11h42.33.822,staircase exp lab report,2023.1.3,59.97814399341266,
28,0.5,7.0,370.6826193999732,371.18301479995716,371.18301479995716,371.18301479995716,371.4827188999625,left,-7.0,1,1,0.5303272999590263,298395,001,2023-09-01_11h42.33.822,staircase exp lab report,2023.1.3,59.97814399341266,
29,0.5,7.0,371.73265919997357,372.232546400046,372.232546400046,372.232546400046,372.5321169999661,left,-7.0,1,1,0.5248401999706402,298395,001,2023-09-01_11h42.33.822,staircase exp lab report,2023.1.3,59.97814399341266,
30,0.5,7.0,372.782526499941,373.26589289994445,373.26589289994445,373.26589289994445,373.5656452999683,right,7.0,0,0,3.7255233000032604,298395,001,2023-09-01_11h42.33.822,staircase exp lab report,2023.1.3,59.97814399341266,
31,0.5,7.5,377.01593839994166,377.5156294000335,377.5156294000335,377.5156294000335,377.8156539000338,left,-7.5,1,1,0.6132324999198318,298395,001,2023-09-01_11h42.33.822,staircase exp lab report,2023.1.3,59.97814399341266,
32,0.5,7.5,378.1489719999954,378.64935269998387,378.64935269998387,378.64935269998387,378.9498804999748,right,7.5,0,0,0.3440427000168711,298395,001,2023-09-01_11h42.33.822,staircase exp lab report,2023.1.3,59.97814399341266,
33,0.5,8.0,379.0160523999948,379.49934790004045,379.49934790004045,379.49934790004045,379.80052519997116,right,8.0,1,1,0.4061900000087917,298395,001,2023-09-01_11h42.33.822,staircase exp lab report,2023.1.3,59.97814399341266,
34,0.5,8.0,379.9324877000181,380.4329901000019,380.4329901000019,380.4329901000019,380.73219300003257,left,-8.0,0,0,7.704666400095448,298395,001,2023-09-01_11h42.33.822,staircase exp lab report,2023.1.3,59.97814399341266,
35,0.5,8.5,388.1661242999835,388.66629700001795,388.66629700001795,388.66629700001795,388.96555039996747,right,8.5,0,0,0.5662163000088185,298395,001,2023-09-01_11h42.33.822,staircase exp lab report,2023.1.3,59.97814399341266,
36,0.5,9.0,389.2494530000258,389.74967229994945,389.74967229994945,389.74967229994945,390.0500984999817,right,9.0,0,0,0.5130328999366611,298395,001,2023-09-01_11h42.33.822,staircase exp lab report,2023.1.3,59.97814399341266,
37,0.5,9.5,390.283668100019,390.78243789996486,390.78243789996486,390.78243789996486,391.08243519999087,right,9.5,0,0,0.5254478000570089,298395,001,2023-09-01_11h42.33.822,staircase exp lab report,2023.1.3,59.97814399341266,
38,0.5,10.0,391.3323594999965,391.832621700014,391.832621700014,391.832621700014,392.13242299994454,left,-10.0,1,1,0.746607800014317,298395,001,2023-09-01_11h42.33.822,staircase exp lab report,2023.1.3,59.97814399341266,
39,0.5,10.0,392.59913939994294,393.0992339999648,393.0992339999648,393.0992339999648,393.3991586000193,right,10.0,1,1,1.2741146999178454,298395,001,2023-09-01_11h42.33.822,staircase exp lab report,2023.1.3,59.97814399341266,
40,0.5,10.0,394.3995065999916,394.90008339995984,394.90008339995984,394.90008339995984,395.1996919999365,left,-10.0,1,1,0.8384197000414133,298395,001,2023-09-01_11h42.33.822,staircase exp lab report,2023.1.3,59.97814399341266,
41,0.5,9.5,395.76646630000323,396.26558040000964,396.26558040000964,396.26558040000964,396.5655495999381,left,-9.5,1,1,0.48501659999601543,298395,001,2023-09-01_11h42.33.822,staircase exp lab report,2023.1.3,59.97814399341266,
42,0.5,9.5,396.78244340000674,397.28269849997014,397.28269849997014,397.28269849997014,397.5827890000073,left,-9.5,1,1,0.6382516999728978,298395,001,2023-09-01_11h42.33.822,staircase exp lab report,2023.1.3,59.97814399341266,
43,0.5,9.5,397.94926439994015,398.4495192000177,398.4495192000177,398.4495192000177,398.74950619996525,right,9.5,1,1,0.6111634999979287,298395,001,2023-09-01_11h42.33.822,staircase exp lab report,2023.1.3,59.97814399341266,
44,0.5,9.0,399.0824853000231,399.5823734999867,399.5823734999867,399.5823734999867,399.88193220004905,right,9.0,1,1,0.5165061999578029,298395,001,2023-09-01_11h42.33.822,staircase exp lab report,2023.1.3,59.97814399341266,
45,0.5,9.0,400.11571619997267,400.61615170002915,400.61615170002915,400.61615170002915,400.9156905999407,right,9.0,1,1,0.6231923999730498,298395,001,2023-09-01_11h42.33.822,staircase exp lab report,2023.1.3,59.97814399341266,
46,0.5,9.0,401.2658676999854,401.74921179993544,401.74921179993544,401.74921179993544,402.0492088999599,right,9.0,1,1,3.8003370999358594,298395,001,2023-09-01_11h42.33.822,staircase exp lab report,2023.1.3,59.97814399341266,
47,0.5,8.5,405.5665105000371,406.0491091000149,406.0491091000149,406.0491091000149,406.34898589993827,left,-8.5,1,1,0.5987473999848589,298395,001,2023-09-01_11h42.33.822,staircase exp lab report,2023.1.3,59.97814399341266,
48,0.5,8.5,406.66571099997964,407.16574179998133,407.16574179998133,407.16574179998133,407.46545809996314,left,-8.5,0,0,8.447088100016117,298395,001,2023-09-01_11h42.33.822,staircase exp lab report,2023.1.3,59.97814399341266,
49,0.5,9.0,415.63240570004564,416.13265249994583,416.13265249994583,416.13265249994583,416.4327483000234,left,-9.0,0,0,83.32921210001223,298395,001,2023-09-01_11h42.33.822,staircase exp lab report,2023.1.3,59.97814399341266,
